Folder: Django_API_cource/samples/xrd/ch2103

File: Ch2103_H2_1h_650_r.TXT
Sample	CH2103_650_1h_H2
Comments
Filename	C:\Measurements\Makogon\2018\272\CH2103_650_1h_H2.raw
Goniometer	Ultima IV
Attachment	MPA-ML4 (with gamma) for T.F.& std
Monochromater	Fixed Monochro.(U4)
ScanningMode	2Theta/Theta
ScanningType	FT
X-Ray	30kV/30mA
DivSlit	1/2deg.
DivH.L.Slit	5.00mm
SctSlit	1/2deg.
RecSlit	0.45mm
Monochro RS	No Use
Start	20
Stop	60
Step	0.04
FT	5
20	24
20.16	22
20.32	26
20.48	27
20.64	21
20.8	20
20.96	31
21.12	25
21.28	23
21.44	24
21.6	23
21.76	29
21.92	23
22.08	24
22.24	14
22.4	24
22.56	24
22.72	28
22.88	13
23.04	13
23.2	11
23.36	19
23.52	15
23.68	18
23.84	21
24	23
24.16	15
24.32	12
24.48	22
24.64	18
24.8	20
24.96	17
25.12	18
25.28	15
25.44	18
25.6	16
25.76	16
25.92	16
26.08	16
26.24	13
26.4	15
26.56	12
26.72	19
26.88	19
27.04	14
27.2	17
27.36	14
27.52	21
27.68	12
27.84	12
28	15
28.16	16
28.32	20
28.48	17
28.64	17
28.8	16
28.96	12
29.12	12
29.28	14
29.44	16
29.6	14
29.76	12
29.92	14
30.08	9
30.24	15
30.4	15
30.56	17
30.72	9
30.88	18
31.04	15
31.2	19
31.36	12
31.52	14
31.68	16
31.84	19
32	23
32.16	49
32.32	57
32.48	91
32.64	152
32.8	208
32.96	256
33.12	301
33.28	324
33.44	396
33.6	398
33.76	353
33.92	336
34.08	354
34.24	295
34.4	285
34.56	294
34.72	255
34.88	239
35.04	223
35.2	217
35.36	189
35.52	189
35.68	134
35.84	113
36	88
36.16	70
36.32	41
36.48	36
36.64	23
36.8	23
36.96	19
37.12	12
37.28	11
37.44	15
37.6	16
37.76	14
37.92	12
38.08	11
38.24	17
38.4	17
38.56	13
38.72	12
38.88	21
39.04	13
39.2	15
39.36	20
39.52	27
39.68	30
39.84	36
40	64
40.16	92
40.32	218
40.48	610
40.64	3262
40.8	5111
40.96	1768
41.12	413
41.28	181
41.44	69
41.6	54
41.76	33
41.92	28
42.08	24
42.24	13
42.4	16
42.56	12
42.72	10
42.88	18
43.04	13
43.2	10
43.36	14
43.52	16
43.68	13
43.84	18
44	12
44.16	12
44.32	15
44.48	16
44.64	8
44.8	14
44.96	13
45.12	20
45.28	12
45.44	9
45.6	10
45.76	18
45.92	19
46.08	6
46.24	18
46.4	21
46.56	27
46.72	60
46.88	53
47.04	154
47.2	717
47.36	1250
47.52	685
47.68	219
47.84	76
48	44
48.16	28
48.32	24
48.48	13
48.64	18
48.8	13
48.96	11
49.12	11
49.28	13
49.44	9
49.6	16
49.76	12
49.92	11
50.08	13
50.24	11
50.4	15
50.56	9
50.72	14
50.88	10
51.04	17
51.2	10
51.36	18
51.52	10
51.68	7
51.84	14
52	8
52.16	14
52.32	14
52.48	3
52.64	7
52.8	15
52.96	12
53.12	14
53.28	9
53.44	13
53.6	12
53.76	7
53.92	23
54.08	8
54.24	12
54.4	12
54.56	19
54.72	13
54.88	11
55.04	19
55.2	15
55.36	6
55.52	19
55.68	10
55.84	18
56	10
56.16	8
56.32	10
56.48	14
56.64	17
56.8	14
56.96	15
57.12	12
57.28	14
57.44	10
57.6	8
57.76	7
57.92	11
58.08	9
58.24	12
58.4	10
58.56	16
58.72	8
58.88	14
59.04	5
59.2	15
59.36	16
59.52	12
59.68	13
59.84	6
60	16